Folder: MinoanRedSerp/Suppl data/Spectra/XRD spectra

Note: Suppl data/Spectra/XRD spectra/README.md
This folder contains all XRD spectra used in the paper.

File: MS01B.txt
MS01B
Wavelength = 1.54059
5	14.00
5.2247	8.00
5.4493	12.00
5.674	7.00
5.8987	9.00
6.1233	5.00
6.348	9.00
6.5727	4.00
6.7973	6.00
7.022	10.00
7.2467	10.00
7.4713	6.00
7.696	11.00
7.9207	9.00
8.1453	7.00
8.37	10.00
8.5947	9.00
8.8193	11.00
9.044	9.00
9.2687	7.00
9.4933	8.00
9.718	11.00
9.9427	12.00
10.1673	23.00
10.392	16.00
10.6167	11.00
10.8413	13.00
11.066	30.00
11.2907	23.00
11.5153	27.00
11.74	37.00
11.9647	60.00
12.1893	568.00
12.414	86.00
12.6387	27.00
12.8633	20.00
13.088	16.00
13.3126	22.00
13.5373	13.00
13.762	18.00
13.9866	14.00
14.2113	18.00
14.436	16.00
14.6606	16.00
14.8853	20.00
15.11	15.00
15.3346	28.00
15.5593	15.00
15.784	11.00
16.0086	11.00
16.2333	12.00
16.458	15.00
16.6826	16.00
16.9073	11.00
17.132	16.00
17.3566	46.00
17.5813	15.00
17.806	11.00
18.0306	12.00
18.2553	22.00
18.48	8.00
18.7046	16.00
18.9293	27.00
19.154	32.00
19.3786	50.00
19.6033	32.00
19.828	27.00
20.0526	32.00
20.2773	21.00
20.502	30.00
20.7266	22.00
20.9513	26.00
21.176	38.00
21.4006	26.00
21.6253	22.00
21.85	28.00
22.0746	28.00
22.2993	25.00
22.524	26.00
22.7486	33.00
22.9733	48.00
23.198	30.00
23.4226	31.00
23.6473	32.00
23.872	70.00
24.0966	59.00
24.3213	108.00
24.546	406.00
24.7706	174.00
24.9953	78.00
25.22	42.00
25.4446	73.00
25.6693	41.00
25.894	27.00
26.1186	16.00
26.3433	25.00
26.5679	34.00
26.7926	25.00
27.0173	24.00
27.2419	16.00
27.4666	27.00
27.6913	22.00
27.9159	22.00
28.1406	24.00
28.3653	19.00
28.5899	15.00
28.8146	20.00
29.0393	25.00
29.2639	24.00
29.4886	26.00
29.7133	43.00
29.9379	35.00
30.1626	46.00
30.3873	21.00
30.6119	19.00
30.8366	29.00
31.0613	20.00
31.2859	27.00
31.5106	28.00
31.7353	19.00
31.9599	31.00
32.1846	46.00
32.4093	35.00
32.6339	28.00
32.8586	30.00
33.0833	38.00
33.3079	21.00
33.5326	27.00
33.7573	34.00
33.9819	26.00
34.2066	39.00
34.4313	54.00
34.6559	66.00
34.8806	85.00
35.1053	83.00
35.3299	178.00
35.5546	449.00
35.7793	180.00
36.0039	91.00
36.2286	75.00
36.4533	447.00
36.6779	113.00
36.9026	87.00
37.1273	95.00
37.3519	62.00
37.5766	58.00
37.8013	45.00
38.0259	35.00
38.2506	73.00
38.4753	40.00
38.6999	43.00
38.9246	45.00
39.1492	43.00
39.3739	52.00
39.5986	150.00
39.8232	57.00
40.0479	77.00
40.2726	56.00
40.4972	51.00
40.7219	43.00
40.9466	54.00
41.1712	42.00
41.3959	74.00
41.6206	140.00
41.8452	138.00
42.0699	106.00
42.2946	79.00
42.5192	47.00
42.7439	47.00
42.9686	59.00
43.1932	41.00
43.4179	22.00
43.6426	33.00
43.8672	45.00
44.0919	30.00
44.3166	22.00
44.5412	23.00
44.7659	27.00
44.9906	39.00
45.2152	20.00
45.4399	29.00
45.6646	32.00
45.8892	26.00
46.1139	32.00
46.3386	38.00
46.5632	37.00
46.7879	34.00
47.0126	25.00
47.2372	28.00
47.4619	25.00
47.6866	24.00
47.9112	17.00
48.1359	35.00
48.3606	70.00
48.5852	37.00
48.8099	43.00
49.0346	52.00
49.2592	39.00
49.4839	64.00
49.7086	66.00
49.9332	62.00
50.1579	69.00
50.3826	54.00
50.6072	42.00
50.8319	49.00
51.0566	53.00
51.2812	59.00
51.5059	53.00
51.7305	48.00
51.9552	50.00
52.1799	298.00
52.4045	105.00
52.6292	101.00
52.8539	70.00
53.0785	47.00
53.3032	61.00
53.5279	55.00
53.7525	49.00
53.9772	51.00
54.2019	38.00
54.4265	47.00
54.6512	42.00
54.8759	60.00
55.1005	37.00
55.3252	45.00
55.5499	23.00
55.7745	51.00
55.9992	83.00
56.2239	60.00
56.4485	43.00
56.6732	70.00
56.8979	135.00
57.1225	68.00
57.3472	49.00
57.5719	33.00
57.7965	52.00
58.0212	43.00
58.2459	52.00
58.4705	50.00
58.6952	86.00
58.9199	90.00
59.1445	118.00
59.3692	72.00
59.5939	71.00
59.8185	106.00
60.0432	142.00
60.2679	129.00
60.4925	126.00
60.7172	132.00
60.9419	117.00
61.1665	123.00
61.3912	102.00
61.6159	100.00
61.8405	197.00
62.0652	98.00
62.2899	78.00
62.5145	118.00
62.7392	134.00
62.9639	62.00
63.1885	56.00
63.4132	50.00
63.6379	43.00
63.8625	45.00
64.0872	50.00
64.3118	55.00
64.5365	40.00
64.7612	45.00
64.9858	48.00
65.2105	44.00
65.4352	36.00
65.6598	38.00
65.8845	45.00
66.1092	29.00
66.3338	33.00
66.5585	44.00
66.7832	72.00
67.0078	71.00
67.2325	51.00
67.4572	45.00
67.6818	39.00
67.9065	39.00
68.1312	32.00
68.3558	39.00
68.5805	28.00
68.8052	41.00
69.0298	27.00
69.2545	45.00
69.4792	55.00
69.7038	51.00
69.9285	49.00
70.0102	45.00

File: MS02BRED.txt
MS02BED
Wavelength = 1.54059
5	5.00
5.2247	11.00
5.4493	8.00
5.674	8.00
5.8987	7.00
6.1233	12.00
6.348	8.00
6.5727	7.00
6.7973	13.00
7.022	9.00
7.2467	6.00
7.4713	3.00
7.696	5.00
7.9207	9.00
8.1453	10.00
8.37	11.00
8.5947	12.00
8.8193	8.00
9.044	17.00
9.2687	9.00
9.4933	8.00
9.718	13.00
9.9427	9.00
10.1673	12.00
10.392	11.00
10.6167	12.00
10.8413	14.00
11.066	21.00
11.2907	11.00
11.5153	11.00
11.74	13.00
11.9647	17.00
12.1893	20.00
12.414	10.00
12.6387	10.00
12.8633	17.00
13.088	10.00
13.3126	13.00
13.5373	19.00
13.762	15.00
13.9866	19.00
14.2113	13.00
14.436	14.00
14.6606	6.00
14.8853	12.00
15.11	11.00
15.3346	10.00
15.5593	14.00
15.784	13.00
16.0086	10.00
16.2333	13.00
16.458	17.00
16.6826	17.00
16.9073	17.00
17.132	18.00
17.3566	132.00
17.5813	16.00
17.806	11.00
18.0306	18.00
18.2553	10.00
18.48	13.00
18.7046	14.00
18.9293	8.00
19.154	15.00
19.3786	9.00
19.6033	9.00
19.828	10.00
20.0526	14.00
20.2773	25.00
20.502	23.00
20.7266	11.00
20.9513	13.00
21.176	12.00
21.4006	18.00
21.6253	14.00
21.85	14.00
22.0746	27.00
22.2993	17.00
22.524	20.00
22.7486	63.00
22.9733	178.00
23.198	34.00
23.4226	22.00
23.6473	24.00
23.872	116.00
24.0966	33.00
24.3213	21.00
24.546	15.00
24.7706	17.00
24.9953	19.00
25.22	17.00
25.4446	99.00
25.6693	41.00
25.894	22.00
26.1186	21.00
26.3433	22.00
26.5679	21.00
26.7926	16.00
27.0173	15.00
27.2419	18.00
27.4666	21.00
27.6913	22.00
27.9159	23.00
28.1406	20.00
28.3653	20.00
28.5899	28.00
28.8146	26.00
29.0393	19.00
29.2639	26.00
29.4886	27.00
29.7133	64.00
29.9379	81.00
30.1626	35.00
30.3873	26.00
30.6119	26.00
30.8366	27.00
31.0613	23.00
31.2859	22.00
31.5106	15.00
31.7353	31.00
31.9599	28.00
32.1846	77.00
32.4093	235.00
32.6339	41.00
32.8586	33.00
33.0833	81.00
33.3079	63.00
33.5326	26.00
33.7573	26.00
33.9819	27.00
34.2066	21.00
34.4313	17.00
34.6559	36.00
34.8806	36.00
35.1053	38.00
35.3299	69.00
35.5546	180.00
35.7793	416.00
36.0039	72.00
36.2286	60.00
36.4533	292.00
36.6779	188.00
36.9026	43.00
37.1273	37.00
37.3519	31.00
37.5766	19.00
37.8013	30.00
38.0259	25.00
38.2506	59.00
38.4753	46.00
38.6999	37.00
38.9246	60.00
39.1492	33.00
39.3739	39.00
39.5986	112.00
39.8232	159.00
40.0479	253.00
40.2726	71.00
40.4972	30.00
40.7219	38.00
40.9466	40.00
41.1712	34.00
41.3959	21.00
41.6206	40.00
41.8452	118.00
42.0699	14.00
42.2946	30.00
42.5192	20.00
42.7439	22.00
42.9686	16.00
43.1932	29.00
43.4179	14.00
43.6426	17.00
43.8672	23.00
44.0919	11.00
44.3166	28.00
44.5412	36.00
44.7659	27.00
44.9906	20.00
45.2152	23.00
45.4399	10.00
45.6646	12.00
45.8892	15.00
46.1139	20.00
46.3386	23.00
46.5632	31.00
46.7879	38.00
47.0126	19.00
47.2372	23.00
47.4619	13.00
47.6866	15.00
47.9112	13.00
48.1359	18.00
48.3606	42.00
48.5852	51.00
48.8099	36.00
49.0346	26.00
49.2592	18.00
49.4839	61.00
49.7086	26.00
49.9332	22.00
50.1579	28.00
50.3826	52.00
50.6072	23.00
50.8319	35.00
51.0566	43.00
51.2812	22.00
51.5059	17.00
51.7305	25.00
51.9552	60.00
52.1799	283.00
52.4045	302.00
52.6292	160.00
52.8539	78.00
53.0785	36.00
53.3032	28.00
53.5279	35.00
53.7525	26.00
53.9772	38.00
54.2019	56.00
54.4265	36.00
54.6512	35.00
54.8759	110.00
55.1005	55.00
55.3252	28.00
55.5499	34.00
55.7745	19.00
55.9992	51.00
56.2239	109.00
56.4485	74.00
56.6732	56.00
56.8979	111.00
57.1225	75.00
57.3472	43.00
57.5719	51.00
57.7965	43.00
58.0212	42.00
58.2459	28.00
58.4705	40.00
58.6952	89.00
58.9199	59.00
59.1445	31.00
59.3692	20.00
59.5939	42.00
59.8185	14.00
60.0432	33.00
60.2679	33.00
60.4925	36.00
60.7172	38.00
60.9419	56.00
61.1665	85.00
61.3912	77.00
61.6159	84.00
61.8405	146.00
62.0652	191.00
62.2899	110.00
62.5145	115.00
62.7392	277.00
62.9639	217.00
63.1885	83.00
63.4132	51.00
63.6379	51.00
63.8625	48.00
64.0872	52.00
64.3118	46.00
64.5365	38.00
64.7612	46.00
64.9858	44.00
65.2105	37.00
65.4352	41.00
65.6598	33.00
65.8845	36.00
66.1092	25.00
66.3338	41.00
66.5585	37.00
66.7832	68.00
67.0078	104.00
67.2325	100.00
67.4572	72.00
67.6818	42.00
67.9065	38.00
68.1312	30.00
68.3558	36.00
68.5805	28.00
68.8052	32.00
69.0298	50.00
69.2545	56.00
69.4792	164.00
69.7038	168.00
69.9285	82.00
70.0102	50.00

File: MS43B.txt
MS43B
Wavelength = 1.54059
5	7.00
5.2247	12.00
5.4493	6.00
5.674	13.00
5.8987	9.00
6.1233	6.00
6.348	5.00
6.5727	7.00
6.7973	3.00
7.022	10.00
7.2467	7.00
7.4713	14.00
7.696	10.00
7.9207	4.00
8.1453	5.00
8.37	12.00
8.5947	8.00
8.8193	12.00
9.044	8.00
9.2687	6.00
9.4933	14.00
9.718	11.00
9.9427	12.00
10.1673	12.00
10.392	14.00
10.6167	14.00
10.8413	11.00
11.066	14.00
11.2907	12.00
11.5153	18.00
11.74	31.00
11.9647	64.00
12.1893	116.00
12.414	35.00
12.6387	20.00
12.8633	21.00
13.088	13.00
13.3126	17.00
13.5373	13.00
13.762	13.00
13.9866	18.00
14.2113	12.00
14.436	14.00
14.6606	10.00
14.8853	14.00
15.11	11.00
15.3346	11.00
15.5593	10.00
15.784	17.00
16.0086	18.00
16.2333	17.00
16.458	14.00
16.6826	13.00
16.9073	15.00
17.132	9.00
17.3566	78.00
17.5813	10.00
17.806	12.00
18.0306	17.00
18.2553	19.00
18.48	14.00
18.7046	14.00
18.9293	15.00
19.154	29.00
19.3786	46.00
19.6033	40.00
19.828	28.00
20.0526	28.00
20.2773	21.00
20.502	27.00
20.7266	19.00
20.9513	27.00
21.176	22.00
21.4006	15.00
21.6253	14.00
21.85	14.00
22.0746	26.00
22.2993	16.00
22.524	25.00
22.7486	45.00
22.9733	44.00
23.198	25.00
23.4226	25.00
23.6473	36.00
23.872	86.00
24.0966	41.00
24.3213	93.00
24.546	105.00
24.7706	61.00
24.9953	35.00
25.22	31.00
25.4446	72.00
25.6693	26.00
25.894	24.00
26.1186	31.00
26.3433	16.00
26.5679	21.00
26.7926	13.00
27.0173	23.00
27.2419	17.00
27.4666	24.00
27.6913	86.00
27.9159	14.00
28.1406	30.00
28.3653	22.00
28.5899	14.00
28.8146	27.00
29.0393	13.00
29.2639	23.00
29.4886	26.00
29.7133	56.00
29.9379	97.00
30.1626	39.00
30.3873	75.00
30.6119	17.00
30.8366	49.00
31.0613	62.00
31.2859	15.00
31.5106	23.00
31.7353	19.00
31.9599	25.00
32.1846	54.00
32.4093	43.00
32.6339	22.00
32.8586	20.00
33.0833	25.00
33.3079	17.00
33.5326	31.00
33.7573	24.00
33.9819	34.00
34.2066	50.00
34.4313	50.00
34.6559	34.00
34.8806	64.00
35.1053	79.00
35.3299	116.00
35.5546	242.00
35.7793	245.00
36.0039	128.00
36.2286	96.00
36.4533	607.00
36.6779	97.00
36.9026	68.00
37.1273	71.00
37.3519	62.00
37.5766	57.00
37.8013	55.00
38.0259	37.00
38.2506	141.00
38.4753	38.00
38.6999	26.00
38.9246	44.00
39.1492	41.00
39.3739	49.00
39.5986	177.00
39.8232	44.00
40.0479	93.00
40.2726	35.00
40.4972	40.00
40.7219	32.00
40.9466	40.00
41.1712	51.00
41.3959	27.00
41.6206	45.00
41.8452	115.00
42.0699	87.00
42.2946	53.00
42.5192	44.00
42.7439	49.00
42.9686	65.00
43.1932	65.00
43.4179	35.00
43.6426	30.00
43.8672	31.00
44.0919	37.00
44.3166	41.00
44.5412	62.00
44.7659	25.00
44.9906	42.00
45.2152	38.00
45.4399	21.00
45.6646	27.00
45.8892	25.00
46.1139	36.00
46.3386	23.00
46.5632	46.00
46.7879	34.00
47.0126	24.00
47.2372	22.00
47.4619	23.00
47.6866	29.00
47.9112	20.00
48.1359	20.00
48.3606	47.00
48.5852	28.00
48.8099	38.00
49.0346	28.00
49.2592	31.00
49.4839	21.00
49.7086	47.00
49.9332	51.00
50.1579	47.00
50.3826	50.00
50.6072	35.00
50.8319	58.00
51.0566	48.00
51.2812	31.00
51.5059	41.00
51.7305	45.00
51.9552	38.00
52.1799	433.00
52.4045	123.00
52.6292	83.00
52.8539	54.00
53.0785	41.00
53.3032	49.00
53.5279	48.00
53.7525	36.00
53.9772	30.00
54.2019	31.00
54.4265	21.00
54.6512	39.00
54.8759	71.00
55.1005	33.00
55.3252	44.00
55.5499	22.00
55.7745	30.00
55.9992	98.00
56.2239	85.00
56.4485	38.00
56.6732	107.00
56.8979	120.00
57.1225	63.00
57.3472	57.00
57.5719	49.00
57.7965	55.00
58.0212	65.00
58.2459	34.00
58.4705	49.00
58.6952	55.00
58.9199	55.00
59.1445	54.00
59.3692	65.00
59.5939	76.00
59.8185	89.00
60.0432	129.00
60.2679	122.00
60.4925	101.00
60.7172	94.00
60.9419	80.00
61.1665	107.00
61.3912	78.00
61.6159	126.00
61.8405	231.00
62.0652	104.00
62.2899	81.00
62.5145	165.00
62.7392	154.00
62.9639	54.00
63.1885	51.00
63.4132	52.00
63.6379	42.00
63.8625	43.00
64.0872	28.00
64.3118	30.00
64.5365	38.00
64.7612	45.00
64.9858	40.00
65.2105	40.00
65.4352	39.00
65.6598	48.00
65.8845	50.00
66.1092	49.00
66.3338	42.00
66.5585	51.00
66.7832	75.00
67.0078	92.00
67.2325	90.00
67.4572	47.00
67.6818	36.00
67.9065	42.00
68.1312	27.00
68.3558	34.00
68.5805	38.00
68.8052	37.00
69.0298	45.00
69.2545	36.00
69.4792	58.00
69.7038	61.00
69.9285	30.00
70.0102	40.00

File: MS43BRED.txt
MS43BRED
Wavelength = 1.54059
5	8.00
5.2247	4.00
5.4493	8.00
5.674	7.00
5.8987	8.00
6.1233	9.00
6.348	6.00
6.5727	10.00
6.7973	7.00
7.022	7.00
7.2467	4.00
7.4713	10.00
7.696	8.00
7.9207	8.00
8.1453	19.00
8.37	11.00
8.5947	11.00
8.8193	14.00
9.044	7.00
9.2687	9.00
9.4933	12.00
9.718	9.00
9.9427	11.00
10.1673	8.00
10.392	7.00
10.6167	6.00
10.8413	7.00
11.066	10.00
11.2907	12.00
11.5153	14.00
11.74	14.00
11.9647	12.00
12.1893	8.00
12.414	9.00
12.6387	13.00
12.8633	12.00
13.088	13.00
13.3126	15.00
13.5373	17.00
13.762	10.00
13.9866	19.00
14.2113	23.00
14.436	16.00
14.6606	6.00
14.8853	12.00
15.11	19.00
15.3346	8.00
15.5593	12.00
15.784	14.00
16.0086	14.00
16.2333	10.00
16.458	14.00
16.6826	8.00
16.9073	11.00
17.132	12.00
17.3566	113.00
17.5813	14.00
17.806	11.00
18.0306	12.00
18.2553	10.00
18.48	7.00
18.7046	8.00
18.9293	9.00
19.154	21.00
19.3786	10.00
19.6033	11.00
19.828	14.00
20.0526	16.00
20.2773	23.00
20.502	14.00
20.7266	12.00
20.9513	16.00
21.176	9.00
21.4006	11.00
21.6253	8.00
21.85	9.00
22.0746	18.00
22.2993	14.00
22.524	23.00
22.7486	35.00
22.9733	93.00
23.198	18.00
23.4226	15.00
23.6473	17.00
23.872	113.00
24.0966	29.00
24.3213	28.00
24.546	18.00
24.7706	17.00
24.9953	14.00
25.22	9.00
25.4446	89.00
25.6693	51.00
25.894	15.00
26.1186	18.00
26.3433	17.00
26.5679	28.00
26.7926	22.00
27.0173	26.00
27.2419	27.00
27.4666	29.00
27.6913	73.00
27.9159	31.00
28.1406	53.00
28.3653	35.00
28.5899	21.00
28.8146	13.00
29.0393	18.00
29.2639	23.00
29.4886	27.00
29.7133	87.00
29.9379	148.00
30.1626	45.00
30.3873	104.00
30.6119	29.00
30.8366	55.00
31.0613	110.00
31.2859	35.00
31.5106	27.00
31.7353	29.00
31.9599	19.00
32.1846	71.00
32.4093	192.00
32.6339	36.00
32.8586	33.00
33.0833	51.00
33.3079	34.00
33.5326	17.00
33.7573	37.00
33.9819	20.00
34.2066	23.00
34.4313	20.00
34.6559	30.00
34.8806	47.00
35.1053	60.00
35.3299	61.00
35.5546	209.00
35.7793	441.00
36.0039	64.00
36.2286	59.00
36.4533	323.00
36.6779	157.00
36.9026	47.00
37.1273	30.00
37.3519	24.00
37.5766	26.00
37.8013	21.00
38.0259	29.00
38.2506	97.00
38.4753	32.00
38.6999	24.00
38.9246	61.00
39.1492	44.00
39.3739	43.00
39.5986	118.00
39.8232	129.00
40.0479	215.00
40.2726	58.00
40.4972	28.00
40.7219	24.00
40.9466	38.00
41.1712	28.00
41.3959	30.00
41.6206	36.00
41.8452	112.00
42.0699	41.00
42.2946	40.00
42.5192	43.00
42.7439	26.00
42.9686	36.00
43.1932	56.00
43.4179	25.00
43.6426	26.00
43.8672	20.00
44.0919	26.00
44.3166	25.00
44.5412	66.00
44.7659	27.00
44.9906	37.00
45.2152	29.00
45.4399	20.00
45.6646	27.00
45.8892	24.00
46.1139	32.00
46.3386	25.00
46.5632	38.00
46.7879	30.00
47.0126	26.00
47.2372	17.00
47.4619	23.00
47.6866	25.00
47.9112	23.00
48.1359	12.00
48.3606	38.00
48.5852	41.00
48.8099	27.00
49.0346	27.00
49.2592	30.00
49.4839	48.00
49.7086	45.00
49.9332	33.00
50.1579	22.00
50.3826	28.00
50.6072	27.00
50.8319	28.00
51.0566	49.00
51.2812	30.00
51.5059	24.00
51.7305	31.00
51.9552	60.00
52.1799	339.00
52.4045	243.00
52.6292	144.00
52.8539	60.00
53.0785	49.00
53.3032	33.00
53.5279	30.00
53.7525	29.00
53.9772	53.00
54.2019	45.00
54.4265	30.00
54.6512	26.00
54.8759	117.00
55.1005	51.00
55.3252	40.00
55.5499	26.00
55.7745	38.00
55.9992	64.00
56.2239	144.00
56.4485	62.00
56.6732	112.00
56.8979	133.00
57.1225	75.00
57.3472	41.00
57.5719	47.00
57.7965	47.00
58.0212	60.00
58.2459	34.00
58.4705	37.00
58.6952	78.00
58.9199	65.00
59.1445	46.00
59.3692	32.00
59.5939	32.00
59.8185	26.00
60.0432	30.00
60.2679	32.00
60.4925	49.00
60.7172	55.00
60.9419	62.00
61.1665	78.00
61.3912	73.00
61.6159	94.00
61.8405	149.00
62.0652	159.00
62.2899	95.00
62.5145	126.00
62.7392	272.00
62.9639	164.00
63.1885	64.00
63.4132	54.00
63.6379	40.00
63.8625	33.00
64.0872	41.00
64.3118	28.00
64.5365	30.00
64.7612	52.00
64.9858	46.00
65.2105	31.00
65.4352	49.00
65.6598	50.00
65.8845	65.00
66.1092	43.00
66.3338	44.00
66.5585	47.00
66.7832	87.00
67.0078	120.00
67.2325	89.00
67.4572	75.00
67.6818	43.00
67.9065	27.00
68.1312	34.00
68.3558	27.00
68.5805	37.00
68.8052	35.00
69.0298	42.00
69.2545	56.00
69.4792	155.00
69.7038	126.00
69.9285	73.00
70.0102	54.00